text_key,domain,col_key,field_key,type,label,description,multiple,standard_adam,standard_sdtm
id_col,vitals,id_col,,column,ID column,Unique subject identifier variable name.,FALSE,USUBJID,USUBJID
value_col,vitals,value_col,,column,Value column,Vitals result variable name.,FALSE,AVAL,VSSTRESN
measure_col,vitals,measure_col,,column,Measure column,Vitals measure variable name,FALSE,PARAM,VSTEST
studyday_col,vitals,studyday_col,,column,Study Day column,Visit day variable name,FALSE,ADY,VSDY
visit_col,vitals,visit_col,,column,Visit column,Visit variable name,FALSE,AVISIT,VISIT
visitn_col,vitals,visitn_col,,column,Visit Number column,Visit number variable name,FALSE,AVISITN,VISITNUM
measure_values--SYSBP,vitals,measure_col,SYSBP,field,Systolic value,Value used for Systolic Blood Pressure in the specified measure column,FALSE,Systolic Blood Pressure (mmHg),Systolic Blood Pressure 
measure_values--DIABP,vitals,measure_col,DIABP,field,Diastolic value,Value used for Diastolic  Blood Pressure in the specified measure column,FALSE,Diastolic Blood Pressure (mmHg),Diastolic Blood Pressure
unit_col,vitals,unit_col,,column,Unit column,Unit of measure variable name for Blood Pressure,FALSE,STRESU,VSSTRESU
vs_baseline_flag_col,vitals,vs_baseline_flag,,column,VS Baseline Flag,Column for assigning baseline visits for Blood Pressure,FALSE,ABLFL,
vs_baseline_values--POS,vitals,vs_baseline_flag_col,POS,field,VS Baseline Flag value,Value used for Baseline in the specified baseline column  for Blood Pressure,FALSE,Y,Y
lab_unit_col,labs,lab_unit_col,,column,Unit column,Unit of measure variable name,FALSE,STRESU,STRESU
measure_values--ALB,labs,measure_col,ALB,field,Albumin value,Value used for Albumin in the specified measure column,FALSE,Albumin (g/L),Albumin
measure_values--BICARB,labs,measure_col,BICARB,field,Bicarbonate value,Value used for Bicarbonate in the specified measure column,FALSE,Bicarbonate (umol/L),Bicarbonate
measure_values--BUN,labs,measure_col,BUN,field,Blood Urea Nitrogen value,Value used for Blood Urea Nitrogen in the specified measure column,FALSE,Blood Urea Nitrogen (mmol/L),Blood Urea Nitrogen
measure_values--CA,labs,measure_col,CA,field,Calcium value,Value used for Calcium in the specified measure column,FALSE,Calcium (mmol/L),Calcium
measure_values--CL,labs,measure_col,CL,field,Chloride value,Value used for Chloride in the specified measure column,FALSE,Chloride (mmol/L),Chloride
measure_values--CREAT,labs,measure_col,CREAT,field,Creatinine value,Value used for Creatinine in the specified measure column,FALSE,Creatinine (umol/L),Creatinine
measure_values--CYSTC,labs,measure_col,CYSTC,field,Cystatin C value,Value used for Cystatin C in the specified measure column,FALSE,Cystatin C (umol/L),Cystatin C
measure_values--eGFR,labs,measure_col,eGFR,field,eGFR value,Value used for the Estimated Glomerular Filtration Rate in the specified measure column,FALSE,eGFR (mL/min),eGFR
measure_values--eGFRcys,labs,measure_col,eGFRcys,field,eGFRcys value,Value used for the Cystatic C-based Estimated Glomerular Filtration Rate in the specified measure column,FALSE,eGFRcys (mL/min),eGFRcys
measure_values--PHOS,labs,measure_col,PHOS,field,Phosphate value,Value used for Phosphate in the specified measure column,FALSE,Phosphate (mmol/L),Phosphate
measure_values--K,labs,measure_col,K,field,Potassium value,Value used for Potassium in the specified measure column,FALSE,Potassium (mmol/L),Potassium
measure_values--SODIUM,labs,measure_col,SODIUM,field,Sodium value,Value used for Sodium in the specified measure column,FALSE,Sodium (mmol/L),Sodium
measure_values--Albumin/Creatinine,labs,measure_col,ALB/CREAT,field,Albumin/Creatinine Ratio value,Value used for Albumin/Creatinine ratio in the specified measure column,FALSE,Albumin/Creatinine,
visit_order_col,labs,visit_order_col,,column,Nep Visit Number column,Nep Visit number variable name,FALSE,AVISITN,VISITNUM
baseline_flag_col,labs,baseline_flag,,column,Baseline Flag,Column for assigning baseline visits,FALSE,ABLFL,LBBLFL
baseline_values--Y,labs,baseline_flag_col,Y,field,Baseline Flag value,Value used for Baseline in the specified baseline column,FALSE,Y,Y
