text_key,domain,col_key,field_key,type,label,description,multiple,standard_adam,standard_sdtm
id_col,vitals,id_col,,column,ID column,Unique subject identifier variable name.,FALSE,USUBJID,USUBJID
value_col,vitals,value_col,,column,Value column,Vitals result variable name.,FALSE,AVAL,VSSTRESN
measure_col,vitals,measure_col,,column,Measure column,Vitals measure variable name,FALSE,PARAM,VSTEST
studyday_col,vitals,studyday_col,,column,Study Day column,Visit day variable name,FALSE,ADY,VSDY
visit_col,vitals,visit_col,,column,Visit column,Visit variable name,FALSE,AVISIT,VISIT
visitn_col,vitals,visitn_col,,column,Visit Number column,Visit number variable name,FALSE,AVISITN,VISITNUM
unit_col,vitals,unit_col,,column,Unit column,Unit of measure variable name,FALSE,,VSSTRESU
